n   S(n)        y = 0.9957x-3.742
1	0.00E+00	-2.7463
2	5.00E-01	-1.7506
3	1.19E+00	-0.7549
4	1.97E+00	0.2408
5	2.80E+00	1.2365
6	3.67E+00	2.2322
7	4.55E+00	3.2279
8	5.46E+00	4.2236
9	6.37E+00	5.2193
10	7.29E+00	6.215
11	8.22E+00	7.2107
12	9.16E+00	8.2064
13	1.01E+01	9.2021
14	1.10E+01	10.1978
15	1.20E+01	11.1935
16	1.30E+01	12.1892
17	1.39E+01	13.1849
18	1.49E+01	14.1806
19	1.58E+01	15.1763
20	1.68E+01	16.172
21	1.78E+01	17.1677
22	1.87E+01	18.1634
23	1.97E+01	19.1591
24	2.07E+01	20.1548
25	2.16E+01	21.1505
26	2.26E+01	22.1462
27	2.36E+01	23.1419
28	2.45E+01	24.1376
29	2.55E+01	25.1333
30	2.65E+01	26.129
31	2.75E+01	27.1247
32	2.85E+01	28.1204
33	2.94E+01	29.1161
34	3.04E+01	30.1118
35	3.14E+01	31.1075
36	3.24E+01	32.1032
37	3.33E+01	33.0989
38	3.43E+01	34.0946
39	3.53E+01	35.0903
40	3.63E+01	36.086
41	3.73E+01	37.0817
42	3.83E+01	38.0774
43	3.92E+01	39.0731
44	4.02E+01	40.0688
45	4.12E+01	41.0645
46	4.22E+01	42.0602
47	4.32E+01	43.0559
48	4.42E+01	44.0516
49	4.51E+01	45.0473
50	4.61E+01	46.043
51	4.71E+01	47.0387
52	4.81E+01	48.0344
53	4.91E+01	49.0301
54	5.01E+01	50.0258
55	5.11E+01	51.0215
56	5.20E+01	52.0172
57	5.30E+01	53.0129
58	5.40E+01	54.0086
59	5.50E+01	55.0043
60	5.60E+01	56
61	5.70E+01	56.9957
62	5.80E+01	57.9914
63	5.90E+01	58.9871
64	6.00E+01	59.9828
65	6.09E+01	60.9785
66	6.19E+01	61.9742
67	6.29E+01	62.9699
68	6.39E+01	63.9656
69	6.49E+01	64.9613
70	6.59E+01	65.957
71	6.69E+01	66.9527
72	6.79E+01	67.9484
73	6.89E+01	68.9441
74	6.98E+01	69.9398
75	7.08E+01	70.9355
76	7.18E+01	71.9312
77	7.28E+01	72.9269
78	7.38E+01	73.9226
79	7.48E+01	74.9183
80	7.58E+01	75.914
81	7.68E+01	76.9097
82	7.78E+01	77.9054
83	7.88E+01	78.9011
84	7.98E+01	79.8968
85	8.07E+01	80.8925
86	8.17E+01	81.8882
87	8.27E+01	82.8839
88	8.37E+01	83.8796
89	8.47E+01	84.8753
90	8.57E+01	85.871
91	8.67E+01	86.8667
92	8.77E+01	87.8624
93	8.87E+01	88.8581
94	8.97E+01	89.8538
95	9.07E+01	90.8495
96	9.17E+01	91.8452
97	9.27E+01	92.8409
98	9.36E+01	93.8366
99	9.46E+01	94.8323
100	9.56E+01	95.828
101	9.66E+01	96.8237
102	9.76E+01	97.8194
103	9.86E+01	98.8151
104	9.96E+01	99.8108
105	1.01E+02	100.8065
106	1.02E+02	101.8022
107	1.03E+02	102.7979
108	1.04E+02	103.7936
109	1.05E+02	104.7893
110	1.06E+02	105.785
111	1.07E+02	106.7807
112	1.08E+02	107.7764
113	1.09E+02	108.7721
114	1.10E+02	109.7678
115	1.11E+02	110.7635
116	1.12E+02	111.7592
117	1.13E+02	112.7549
118	1.14E+02	113.7506
119	1.15E+02	114.7463
120	1.15E+02	115.742
121	1.16E+02	116.7377
122	1.17E+02	117.7334
123	1.18E+02	118.7291
124	1.19E+02	119.7248
125	1.20E+02	120.7205
126	1.21E+02	121.7162
127	1.22E+02	122.7119
128	1.23E+02	123.7076
129	1.24E+02	124.7033
130	1.25E+02	125.699
131	1.26E+02	126.6947
132	1.27E+02	127.6904
133	1.28E+02	128.6861
134	1.29E+02	129.6818
135	1.30E+02	130.6775
136	1.31E+02	131.6732
137	1.32E+02	132.6689
138	1.33E+02	133.6646
139	1.34E+02	134.6603
140	1.35E+02	135.656
141	1.36E+02	136.6517
142	1.37E+02	137.6474
143	1.38E+02	138.6431
144	1.39E+02	139.6388
145	1.40E+02	140.6345
146	1.41E+02	141.6302
147	1.42E+02	142.6259
148	1.43E+02	143.6216
149	1.44E+02	144.6173
150	1.45E+02	145.613
151	1.46E+02	146.6087
152	1.47E+02	147.6044
153	1.48E+02	148.6001
154	1.49E+02	149.5958
155	1.50E+02	150.5915
156	1.51E+02	151.5872
157	1.52E+02	152.5829
158	1.53E+02	153.5786
159	1.54E+02	154.5743
160	1.55E+02	155.57
161	1.56E+02	156.5657
162	1.57E+02	157.5614
163	1.58E+02	158.5571
164	1.59E+02	159.5528
165	1.60E+02	160.5485
166	1.61E+02	161.5442
167	1.62E+02	162.5399
168	1.63E+02	163.5356
169	1.64E+02	164.5313
170	1.65E+02	165.527
171	1.66E+02	166.5227
172	1.67E+02	167.5184
173	1.68E+02	168.5141
174	1.69E+02	169.5098
175	1.70E+02	170.5055
176	1.71E+02	171.5012
177	1.72E+02	172.4969
178	1.73E+02	173.4926
179	1.74E+02	174.4883
180	1.75E+02	175.484
181	1.76E+02	176.4797
182	1.77E+02	177.4754
183	1.78E+02	178.4711
184	1.79E+02	179.4668
185	1.80E+02	180.4625
186	1.81E+02	181.4582
187	1.82E+02	182.4539
188	1.83E+02	183.4496
189	1.84E+02	184.4453
190	1.85E+02	185.441
191	1.86E+02	186.4367
192	1.87E+02	187.4324
193	1.88E+02	188.4281
194	1.89E+02	189.4238
195	1.90E+02	190.4195
196	1.91E+02	191.4152
197	1.92E+02	192.4109
198	1.93E+02	193.4066
199	1.94E+02	194.4023
200	1.95E+02	195.398
201	1.96E+02	196.3937
202	197.1238016	197.3894
203	1.98E+02	198.3851
204	199.1166947	199.3808
205	2.00E+02	200.3765
206	201.109657	201.3722
207	2.02E+02	202.3679
208	203.1026874	203.3636
209	2.04E+02	204.3593
210	205.0957844	205.355
211	2.06E+02	206.3507
212	207.0889469	207.3464
213	2.08E+02	208.3421
214	209.0821736	209.3378
215	2.10E+02	210.3335
216	211.0754633	211.3292
217	2.12E+02	212.3249
218	213.0688148	213.3206
219	2.14E+02	214.3163
220	215.0622271	215.312
221	2.16E+02	216.3077
222	217.0556989	217.3034
223	2.18E+02	218.2991
224	219.0492294	219.2948
225	2.20E+02	220.2905
226	221.0428173	221.2862
227	2.22E+02	222.2819
228	223.0364617	223.2776
229	2.24E+02	224.2733
230	225.0301617	225.269
231	2.26E+02	226.2647
232	227.0239162	227.2604
233	2.28E+02	228.2561
234	229.0177243	229.2518
235	2.30E+02	230.2475
236	231.0115851	231.2432
237	2.32E+02	232.2389
238	233.0054977	233.2346
239	2.34E+02	234.2303
240	234.9994612	235.226
241	2.36E+02	236.2217
242	236.9934749	237.2174
243	2.38E+02	238.2131
244	238.9875378	239.2088
245	2.40E+02	240.2045
246	240.9816492	241.2002
247	2.42E+02	242.1959
248	242.9758082	243.1916
249	2.44E+02	244.1873
250	244.9700142	245.183
251	2.46E+02	246.1787
252	246.9642664	247.1744
253	2.48E+02	248.1701
254	248.9585639	249.1658
255	2.50E+02	250.1615
256	250.9529063	251.1572
257	2.52E+02	252.1529
258	252.9472926	253.1486
259	2.54E+02	254.1443
260	254.9417223	255.14
261	2.56E+02	256.1357
262	256.9361947	257.1314
263	2.58E+02	258.1271
264	258.9307091	259.1228
265	2.60E+02	260.1185
266	260.9252649	261.1142
267	2.62E+02	262.1099
268	262.9198615	263.1056
269	2.64E+02	264.1013
270	264.9144983	265.097
271	2.66E+02	266.0927
272	266.9091746	267.0884
273	2.68E+02	268.0841
274	268.90389	269.0798
275	2.70E+02	270.0755
276	270.8986438	271.0712
277	2.72E+02	272.0669
278	272.8934354	273.0626
279	2.74E+02	274.0583
280	274.8882645	275.054
281	2.76E+02	276.0497
282	276.8831303	277.0454
283	2.78E+02	278.0411
284	278.8780324	279.0368
285	2.80E+02	280.0325
286	280.8729702	281.0282
287	2.82E+02	282.0239
288	282.8679434	283.0196
289	2.84E+02	284.0153
290	284.8629513	285.011
291	2.86E+02	286.0067
292	286.8579936	287.0024
293	2.88E+02	287.9981
294	288.8530696	288.9938
295	2.90E+02	289.9895
296	290.8481791	290.9852
297	2.92E+02	291.9809
298	292.8433215	292.9766
299	2.94E+02	293.9723
300	2.95E+02	294.968
301	2.96E+02	295.9637
302	2.97E+02	296.9594
303	2.98E+02	297.9551
304	2.99E+02	298.9508
305	3.00E+02	299.9465
306	3.01E+02	300.9422
307	3.02E+02	301.9379
308	3.03E+02	302.9336
309	3.04E+02	303.9293
310	3.05E+02	304.925
311	3.06E+02	305.9207
312	3.07E+02	306.9164
313	3.08E+02	307.9121
314	3.09E+02	308.9078
315	3.10E+02	309.9035
316	3.11E+02	310.8992
317	3.12E+02	311.8949
318	3.13E+02	312.8906
319	3.14E+02	313.8863
320	3.15E+02	314.882
321	3.16E+02	315.8777
322	3.17E+02	316.8734
323	3.18E+02	317.8691
324	3.19E+02	318.8648
325	3.20E+02	319.8605
326	3.21E+02	320.8562
327	3.22E+02	321.8519
328	3.23E+02	322.8476
329	3.24E+02	323.8433
330	3.25E+02	324.839
331	3.26E+02	325.8347
332	3.27E+02	326.8304
333	3.28E+02	327.8261
334	3.29E+02	328.8218
335	3.30E+02	329.8175
336	3.31E+02	330.8132
337	3.32E+02	331.8089
338	3.33E+02	332.8046
339	3.34E+02	333.8003
340	3.35E+02	334.796
341	3.36E+02	335.7917
342	3.37E+02	336.7874
343	3.38E+02	337.7831
344	3.39E+02	338.7788
345	3.40E+02	339.7745
346	3.41E+02	340.7702
347	3.42E+02	341.7659
348	3.43E+02	342.7616
349	3.44E+02	343.7573
350	3.45E+02	344.753
351	3.46E+02	345.7487
352	3.47E+02	346.7444
353	3.48E+02	347.7401
354	3.49E+02	348.7358
355	3.50E+02	349.7315
356	3.51E+02	350.7272
357	3.52E+02	351.7229
358	3.53E+02	352.7186
359	3.54E+02	353.7143
360	3.55E+02	354.71
361	3.56E+02	355.7057
362	3.57E+02	356.7014
363	3.58E+02	357.6971
364	3.59E+02	358.6928
365	3.60E+02	359.6885
366	3.61E+02	360.6842
367	3.62E+02	361.6799
368	3.63E+02	362.6756
369	3.64E+02	363.6713
370	3.65E+02	364.667
371	3.66E+02	365.6627
372	3.67E+02	366.6584
373	3.68E+02	367.6541
374	3.69E+02	368.6498
375	3.70E+02	369.6455
376	3.71E+02	370.6412
377	3.72E+02	371.6369
378	3.73E+02	372.6326
379	3.74E+02	373.6283
380	3.75E+02	374.624
381	3.76E+02	375.6197
382	3.77E+02	376.6154
383	3.78E+02	377.6111
384	3.79E+02	378.6068
385	3.80E+02	379.6025
386	3.81E+02	380.5982
387	3.82E+02	381.5939
388	3.83E+02	382.5896
389	3.84E+02	383.5853
390	3.85E+02	384.581
391	3.86E+02	385.5767
392	3.87E+02	386.5724
393	3.88E+02	387.5681
394	3.89E+02	388.5638
395	3.90E+02	389.5595
396	3.91E+02	390.5552
397	3.92E+02	391.5509
398	3.93E+02	392.5466
399	3.94E+02	393.5423
400	3.95E+02	394.538
401	3.96E+02	395.5337
402	3.97E+02	396.5294
403	3.98E+02	397.5251
404	3.99E+02	398.5208
405	4.00E+02	399.5165
406	4.01E+02	400.5122
407	4.02E+02	401.5079
408	4.03E+02	402.5036
409	4.04E+02	403.4993
410	4.05E+02	404.495
411	4.06E+02	405.4907
412	4.07E+02	406.4864
413	4.08E+02	407.4821
414	4.09E+02	408.4778
415	4.10E+02	409.4735
416	4.11E+02	410.4692
417	4.12E+02	411.4649
418	4.13E+02	412.4606
419	4.14E+02	413.4563
420	4.15E+02	414.452
421	4.16E+02	415.4477
422	4.17E+02	416.4434
423	4.18E+02	417.4391
424	4.19E+02	418.4348
425	4.20E+02	419.4305
426	4.21E+02	420.4262
427	4.22E+02	421.4219
428	4.23E+02	422.4176
429	4.24E+02	423.4133
430	4.25E+02	424.409
431	4.26E+02	425.4047
432	4.27E+02	426.4004
433	4.28E+02	427.3961
434	4.29E+02	428.3918
435	4.30E+02	429.3875
436	4.31E+02	430.3832
437	4.32E+02	431.3789
438	4.33E+02	432.3746
439	4.34E+02	433.3703
440	4.35E+02	434.366
441	4.36E+02	435.3617
442	4.37E+02	436.3574
443	4.38E+02	437.3531
444	4.39E+02	438.3488
445	4.40E+02	439.3445
446	4.41E+02	440.3402
447	4.42E+02	441.3359
448	4.43E+02	442.3316
449	4.44E+02	443.3273
450	4.45E+02	444.323
451	4.46E+02	445.3187
452	4.47E+02	446.3144
453	4.48E+02	447.3101
454	4.49E+02	448.3058
455	4.50E+02	449.3015
456	4.51E+02	450.2972
457	4.52E+02	451.2929
458	4.53E+02	452.2886
459	4.54E+02	453.2843
460	4.55E+02	454.28
461	4.56E+02	455.2757
462	4.57E+02	456.2714
463	4.58E+02	457.2671
464	4.59E+02	458.2628
465	4.60E+02	459.2585
466	4.61E+02	460.2542
467	4.62E+02	461.2499
468	4.63E+02	462.2456
469	4.64E+02	463.2413
470	4.65E+02	464.237
471	4.66E+02	465.2327
472	4.67E+02	466.2284
473	4.68E+02	467.2241
474	4.69E+02	468.2198
475	4.70E+02	469.2155
476	4.71E+02	470.2112
477	4.72E+02	471.2069
478	4.73E+02	472.2026
479	4.74E+02	473.1983
480	4.74E+02	474.194
481	4.75E+02	475.1897
482	4.76E+02	476.1854
483	4.77E+02	477.1811
484	4.78E+02	478.1768
485	4.79E+02	479.1725
486	4.80E+02	480.1682
487	4.81E+02	481.1639
488	4.82E+02	482.1596
489	4.83E+02	483.1553
490	4.84E+02	484.151
491	4.85E+02	485.1467
492	4.86E+02	486.1424
493	4.87E+02	487.1381
494	4.88E+02	488.1338
495	4.89E+02	489.1295
496	4.90E+02	490.1252
497	4.91E+02	491.1209
498	4.92E+02	492.1166
499	4.93E+02	493.1123
500	494.4700128	494.108